File: Kunda/Kunda_XRD.txt
2theta	Intensity
3	6987
3.0613	6033
3.12261	5311
3.18391	4863
3.24522	4693
3.30652	4426
3.36783	4376
3.42913	4163
3.49043	3918
3.55174	3838
3.61304	3932
3.67435	3900
3.73565	3529
3.79695	3284
3.85826	3177
3.91956	3064
3.98087	2947
4.04217	2889
4.10348	2838
4.16478	2657
4.22608	2602
4.28739	2505
4.34869	2402
4.41	2371
4.4713	2253
4.5326	2169
4.59391	2192
4.65521	2122
4.71652	2018
4.77782	1947
4.83913	1862
4.90043	1916
4.96173	1800
5.02304	1815
5.08434	1713
5.14565	1739
5.20695	1685
5.26825	1660
5.32956	1658
5.39086	1646
5.45217	1598
5.51347	1574
5.57478	1600
5.63608	1605
5.69738	1480
5.75869	1519
5.81999	1534
5.8813	1529
5.9426	1500
6.0039	1611
6.06521	1687
6.12651	1867
6.18782	1963
6.24912	1807
6.31043	1647
6.37173	1573
6.43303	1507
6.49434	1444
6.55564	1487
6.61695	1474
6.67825	1435
6.73955	1393
6.80086	1399
6.86216	1312
6.92347	1442
6.98477	1392
7.04608	1414
7.10738	1374
7.16868	1483
7.22999	1349
7.29129	1450
7.3526	1439
7.4139	1496
7.4752	1495
7.53651	1452
7.59781	1556
7.65912	1469
7.72042	1578
7.78173	1665
7.84303	1656
7.90433	1633
7.96564	1732
8.02694	1791
8.08825	1863
8.14955	2013
8.21085	2009
8.27216	2039
8.33346	2163
8.39477	2322
8.45607	2469
8.51738	2729
8.57868	2759
8.63998	3108
8.70129	3465
8.76259	4221
8.8239	4689
8.8852	3182
8.9465	2383
9.00781	1937
9.06911	1623
9.13042	1427
9.19172	1303
9.25303	1096
9.31433	1025
9.37563	969
9.43694	884
9.49824	843
9.55955	798
9.62085	724
9.68215	732
9.74346	719
9.80476	732
9.86607	691
9.92737	666
9.98868	671
10.05	660
10.1113	710
10.1726	744
10.2339	684
10.2952	670
10.3565	641
10.4178	619
10.4791	681
10.5404	676
10.6017	627
10.663	697
10.7243	653
10.7856	657
10.8469	663
10.9082	673
10.9695	653
11.0308	681
11.0922	636
11.1535	683
11.2148	649
11.2761	691
11.3374	692
11.3987	708
11.46	703
11.5213	703
11.5826	678
11.6439	717
11.7052	693
11.7665	675
11.8278	756
11.8891	758
11.9504	806
12.0117	816
12.073	916
12.1343	989
12.1956	1213
12.2569	1370
12.3182	1558
12.3795	1848
12.4408	1976
12.5021	1663
12.5635	1082
12.6248	856
12.6861	713
12.7474	649
12.8087	653
12.87	628
12.9313	593
12.9926	603
13.0539	608
13.1152	639
13.1765	643
13.2378	612
13.2991	585
13.3604	607
13.4217	604
13.483	655
13.5443	703
13.6056	765
13.6669	583
13.7282	555
13.7895	525
13.8508	504
13.9121	539
13.9734	476
14.0348	524
14.0961	492
14.1574	497
14.2187	521
14.28	493
14.3413	526
14.4026	513
14.4639	460
14.5252	506
14.5865	546
14.6478	563
14.7091	605
14.7704	516
14.8317	566
14.893	586
14.9543	601
15.0156	603
15.0769	590
15.1382	498
15.1995	476
15.2608	484
15.3221	507
15.3834	473
15.4447	503
15.5061	484
15.5674	476
15.6287	483
15.69	461
15.7513	464
15.8126	463
15.8739	452
15.9352	472
15.9965	439
16.0578	465
16.1191	462
16.1804	435
16.2417	462
16.303	456
16.3643	438
16.4256	489
16.4869	430
16.5482	433
16.6095	473
16.6708	484
16.7321	477
16.7934	480
16.8547	509
16.916	554
16.9774	519
17.0387	563
17.1	566
17.1613	540
17.2226	586
17.2839	604
17.3452	672
17.4065	761
17.4678	752
17.5291	809
17.5904	955
17.6517	1083
17.713	1501
17.7743	1360
17.8356	1071
17.8969	855
17.9582	798
18.0195	735
18.0808	765
18.1421	695
18.2034	657
18.2647	653
18.326	614
18.3873	622
18.4487	610
18.51	652
18.5713	692
18.6326	690
18.6939	727
18.7552	864
18.8165	719
18.8778	623
18.9391	600
19.0004	620
19.0617	656
19.123	826
19.1843	974
19.2456	1034
19.3069	1032
19.3682	1091
19.4295	1339
19.4908	1667
19.5521	2459
19.6134	3686
19.6747	4747
19.736	4918
19.7973	4844
19.8586	4079
19.92	2998
19.9813	2471
20.0426	2138
20.1039	2038
20.1652	1955
20.2265	1789
20.2878	1841
20.3491	1838
20.4104	1726
20.4717	1675
20.533	1720
20.5943	1792
20.6556	1780
20.7169	2631
20.7782	8310
20.8395	10970
20.9008	4597
20.9621	2710
21.0234	1894
21.0847	1385
21.146	1165
21.2073	1201
21.2686	1131
21.3299	1150
21.3913	1124
21.4526	1135
21.5139	1243
21.5752	1289
21.6365	1127
21.6978	1002
21.7591	1007
21.8204	890
21.8817	910
21.943	836
22.0043	902
22.0656	907
22.1269	882
22.1882	874
22.2495	995
22.3108	1139
22.3721	1115
22.4334	1295
22.4947	1245
22.556	1213
22.6173	1069
22.6786	1091
22.7399	1133
22.8012	1490
22.8626	1614
22.9239	1456
22.9852	1284
23.0465	1213
23.1078	1165
23.1691	1188
23.2304	1162
23.2917	1290
23.353	1493
23.4143	1800
23.4756	1828
23.5369	1672
23.5982	1552
23.6595	1582
23.7208	1751
23.7821	1861
23.8434	1640
23.9047	1496
23.966	1524
24.0273	1371
24.0886	1373
24.1499	1320
24.2112	1445
24.2725	1527
24.3339	1499
24.3952	1507
24.4565	1557
24.5178	1580
24.5791	1562
24.6404	1521
24.7017	1575
24.763	1713
24.8243	1766
24.8856	1900
24.9469	1828
25.0082	1911
25.0695	2046
25.1308	2206
25.1921	2252
25.2534	2676
25.3147	2332
25.376	2215
25.4373	2662
25.4986	2551
25.5599	2422
25.6212	2527
25.6825	2209
25.7438	1769
25.8052	1528
25.8665	1441
25.9278	1430
25.9891	1469
26.0504	1515
26.1117	1522
26.173	1655
26.2343	1765
26.2956	1964
26.3569	2472
26.4182	3537
26.4795	6219
26.5408	23706
26.6021	58710
26.6634	33440
26.7247	8776
26.786	5904
26.8473	4567
26.9086	3590
26.9699	3334
27.0312	3522
27.0925	2984
27.1538	2406
27.2151	2142
27.2765	2202
27.3378	2400
27.3991	3216
27.4604	3332
27.5217	2829
27.583	2402
27.6443	1963
27.7056	1898
27.7669	2118
27.8282	2104
27.8895	1793
27.9508	1426
28.0121	1385
28.0734	1267
28.1347	1213
28.196	1230
28.2573	1254
28.3186	1220
28.3799	1174
28.4412	1138
28.5025	1242
28.5638	1282
28.6251	1241
28.6864	1308
28.7478	1341
28.8091	1213
28.8704	1270
28.9317	1333
28.993	1441
29.0543	1440
29.1156	1366
29.1769	1316
29.2382	1238
29.2995	1220
29.3608	1265
29.4221	1265
29.4834	1313
29.5447	1361
29.606	1505
29.6673	1770
29.7286	2239
29.7899	2542
29.8512	2335
29.9125	1979
29.9738	1551
30.0351	1366
30.0964	1226
30.1577	1280
30.2191	1257
30.2804	1144
30.3417	1097
30.403	1162
30.4643	1080
30.5256	1043
30.5869	1159
30.6482	1244
30.7095	1426
30.7708	1400
30.8321	1326
30.8934	1168
30.9547	1114
31.016	1096
31.0773	1200
31.1386	1354
31.1999	1521
31.2612	1369
31.3225	1174
31.3838	1060
31.4451	969
31.5064	981
31.5677	913
31.629	874
31.6904	885
31.7517	928
31.813	927
31.8743	1049
31.9356	1175
31.9969	1227
32.0582	1182
32.1195	1044
32.1808	910
32.2421	1071
32.3034	1034
32.3647	908
32.426	838
32.4873	786
32.5486	698
32.6099	683
32.6712	655
32.7325	633
32.7938	654
32.8551	654
32.9164	668
32.9777	769
33.039	718
33.1003	678
33.1617	708
33.223	717
33.2843	759
33.3456	772
33.4069	750
33.4682	781
33.5295	811
33.5908	836
33.6521	805
33.7134	869
33.7747	948
33.836	843
33.8973	884
33.9586	869
34.0199	1031
34.0812	1083
34.1425	1240
34.2038	1354
34.2651	1631
34.3264	1964
34.3877	2473
34.449	2860
34.5103	3303
34.5716	3462
34.633	3489
34.6943	3580
34.7556	3896
34.8169	4298
34.8782	4511
34.9395	4450
35.0008	3802
35.0621	3105
35.1234	2393
35.1847	2005
35.246	1602
35.3073	1465
35.3686	1408
35.4299	1378
35.4912	1244
35.5525	1156
35.6138	1096
35.6751	1050
35.7364	1075
35.7977	1067
35.859	1169
35.9203	1120
35.9816	1174
36.0429	1159
36.1043	1033
36.1656	997
36.2269	1026
36.2882	1140
36.3495	1457
36.4108	1965
36.4721	4340
36.5334	3425
36.5947	3269
36.656	1822
36.7173	1668
36.7786	1490
36.8399	1508
36.9012	1455
36.9625	1569
37.0238	1501
37.0851	1483
37.1464	1421
37.2077	1567
37.269	1601
37.3303	1735
37.3916	1801
37.4529	1865
37.5142	1960
37.5756	1981
37.6369	2052
37.6982	1975
37.7595	1882
37.8208	1594
37.8821	1444
37.9434	1166
38.0047	1051
38.066	1041
38.1273	1026
38.1886	981
38.2499	934
38.3112	921
38.3725	947
38.4338	912
38.4951	907
38.5564	841
38.6177	862
38.679	776
38.7403	692
38.8016	688
38.8629	628
38.9242	605
38.9855	697
39.0469	690
39.1082	707
39.1695	771
39.2308	767
39.2921	878
39.3534	1628
39.4147	3989
39.476	2038
39.5373	2126
39.5986	991
39.6599	857
39.7212	870
39.7825	965
39.8438	1057
39.9051	1204
39.9664	1222
40.0277	1217
40.089	1145
40.1503	1296
40.2116	2376
40.2729	1985
40.3342	1822
40.3955	1090
40.4568	966
40.5182	892
40.5795	867
40.6408	920
40.7021	936
40.7634	1007
40.8247	1006
40.886	977
40.9473	986
41.0086	936
41.0699	943
41.1312	983
41.1925	958
41.2538	921
41.3151	923
41.3764	970
41.4377	881
41.499	939
41.5603	1004
41.6216	1041
41.6829	1109
41.7442	1190
41.8055	1115
41.8668	1207
41.9281	1207
41.9895	1182
42.0508	1066
42.1121	1122
42.1734	1210
42.2347	1384
42.296	1662
42.3573	2756
42.4186	3330
42.4799	2217
42.5412	1781
42.6025	1147
42.6638	991
42.7251	932
42.7864	882
42.8477	796
42.909	724
42.9703	746
43.0316	716
43.0929	742
43.1542	731
43.2155	630
43.2768	711
43.3381	634
43.3994	702
43.4608	746
43.5221	787
43.5834	783
43.6447	730
43.706	719
43.7673	703
43.8286	744
43.8899	751
43.9512	775
44.0125	746
44.0738	745
44.1351	750
44.1964	748
44.2577	662
44.319	666
44.3803	687
44.4416	676
44.5029	731
44.5642	729
44.6255	777
44.6868	823
44.7481	854
44.8094	916
44.8707	1012
44.9321	1018
44.9934	1097
45.0547	1146
45.116	1205
45.1773	1150
45.2386	1313
45.2999	1486
45.3612	1589
45.4225	1605
45.4838	1487
45.5451	1445
45.6064	1305
45.6677	1559
45.729	2653
45.7903	1890
45.8516	2070
45.9129	1490
45.9742	1199
46.0355	1150
46.0968	1014
46.1581	930
46.2194	815
46.2807	790
46.342	752
46.4034	798
46.4647	782
46.526	745
46.5873	712
46.6486	704
46.7099	701
46.7712	674
46.8325	676
46.8938	687
46.9551	675
47.0164	706
47.0777	642
47.139	638
47.2003	583
47.2616	573
47.3229	524
47.3842	562
47.4455	554
47.5068	549
47.5681	516
47.6294	513
47.6907	506
47.752	486
47.8133	528
47.8747	584
47.936	694
47.9973	669
48.0586	651
48.1199	654
48.1812	541
48.2425	553
48.3038	529
48.3651	507
48.4264	474
48.4877	536
48.549	519
48.6103	502
48.6716	505
48.7329	472
48.7942	539
48.8555	494
48.9168	495
48.9781	501
49.0394	521
49.1007	530
49.162	506
49.2233	524
49.2846	528
49.346	545
49.4073	519
49.4686	472
49.5299	532
49.5912	546
49.6525	481
49.7138	515
49.7751	517
49.8364	644
49.8977	716
49.959	897
50.0203	2447
50.0816	6349
50.1429	2687
50.2042	3455
50.2655	1778
50.3268	762
50.3881	637
50.4494	665
50.5107	741
50.572	787
50.6333	844
50.6946	822
50.7559	765
50.8173	656
50.8786	668
50.9399	533
51.0012	531
51.0625	439
51.1238	528
51.1851	469
51.2464	462
51.3077	438
51.369	428
51.4303	417
51.4916	423
51.5529	427
51.6142	417
51.6755	395
51.7368	428
51.7981	430
51.8594	417
51.9207	437
51.982	414
52.0433	433
52.1046	454
52.1659	473
52.2272	541
52.2886	506
52.3499	489
52.4112	536
52.4725	557
52.5338	508
52.5951	557
52.6564	569
52.7177	603
52.779	658
52.8403	599
52.9016	636
52.9629	623
53.0242	592
53.0855	594
53.1468	585
53.2081	641
53.2694	676
53.3307	680
53.392	712
53.4533	706
53.5146	750
53.5759	816
53.6372	844
53.6985	905
53.7599	948
53.8212	1033
53.8825	901
53.9438	966
54.0051	1008
54.0664	939
54.1277	974
54.189	929
54.2503	1015
54.3116	926
54.3729	905
54.4342	956
54.4955	914
54.5568	976
54.6181	972
54.6794	1160
54.7407	1415
54.802	2593
54.8633	1920
54.9246	1744
54.9859	1968
55.0472	1343
55.1085	1371
55.1698	1393
55.2312	1733
55.2925	1863
55.3538	1472
55.4151	1532
55.4764	1413
55.5377	1230
55.599	1320
55.6603	1383
55.7216	1399
55.7829	1361
55.8442	1306
55.9055	1246
55.9668	1185
56.0281	1093
56.0894	1079
56.1507	1090
56.212	1094
56.2733	1066
56.3346	1069
56.3959	1005
56.4572	941
56.5185	987
56.5798	949
56.6411	943
56.7025	957
56.7638	888
56.8251	875
56.8864	847
56.9477	856
57.009	779
57.0703	726
57.1316	806
57.1929	873
57.2542	815
57.3155	788
57.3768	795
57.4381	797
57.4994	746
57.5607	731
57.622	764
57.6833	742
57.7446	743
57.8059	735
57.8672	696
57.9285	647
57.9898	666
58.0511	712
58.1124	602
58.1738	595
58.2351	647
58.2964	644
58.3577	671
58.419	672
58.4803	635
58.5416	681
58.6029	678
58.6642	733
58.7255	690
58.7868	740
58.8481	713
58.9094	699
58.9707	658
59.032	715
59.0933	700
59.1546	734
59.2159	779
59.2772	745
59.3385	788
59.3998	801
59.4611	834
59.5224	814
59.5837	835
59.6451	924
59.7064	1027
59.7677	1211
59.829	2232
59.8903	4553
59.9516	2756
60.0129	2335
60.0742	2849
60.1355	1525
60.1968	1070
60.2581	985
60.3194	951
60.3807	869
60.442	888
60.5033	866
60.5646	935
60.6259	902
60.6872	861
60.7485	912
60.8098	938
60.8711	912
60.9324	920
60.9937	921
61.055	969
61.1164	995
61.1777	1136
61.239	1240
61.3003	1395
61.3616	1480
61.4229	1602
61.4842	1917
61.5455	2120
61.6068	2094
61.6681	2066
61.7294	2018
61.7907	1839
61.852	1571
61.9133	1394
61.9746	1271
62.0359	1144
62.0972	1083
62.1585	1032
62.2198	1059
62.2811	993
62.3424	922
62.4037	945
62.465	887
62.5263	825
62.5877	782
62.649	819
62.7103	763
62.7716	684
62.8329	687
62.8942	656
62.9555	614
63.0168	609
63.0781	578
63.1394	551
63.2007	550
63.262	570
63.3233	524
63.3846	550
63.4459	567
63.5072	515
63.5685	554
63.6298	553
63.6911	581
63.7524	568
63.8137	610
63.875	725
63.9363	964
63.9976	1229
64.059	826
64.1203	911
64.1816	851
64.2429	639
64.3042	594
64.3655	530
64.4268	531
64.4881	568
64.5494	532
64.6107	542
64.672	554
64.7333	573
64.7946	589
64.8559	534
64.9172	606
64.9785	556
65.0398	662
65.1011	600
65.1624	634
65.2237	619
65.285	630
65.3463	565
65.4076	567
65.4689	542
65.5303	596
65.5916	571
65.6529	599
65.7142	731
65.7755	615
65.8368	612
65.8981	643
65.9594	624
66.0207	563
66.082	557
66.1433	533
66.2046	597
66.2659	583
66.3272	551
66.3885	559
66.4498	561
66.5111	515
66.5724	476
66.6337	551
66.695	534
66.7563	546
66.8176	530
66.8789	535
66.9402	533
67.0016	544
67.0629	518
67.1242	573
67.1855	589
67.2468	594
67.3081	596
67.3694	650
67.4307	588
67.492	667
67.5533	744
67.6146	1340
67.6759	2687
67.7372	1618
67.7985	1168
67.8598	1684
67.9211	1365
67.9824	1194
68.0437	2339
68.105	3060
68.1663	1774
68.2276	2883
68.2889	3018
68.3502	1507
68.4115	1435
68.4729	1380
68.5342	844
68.5955	755
68.6568	679
68.7181	688
68.7794	698
68.8407	669
68.902	698
68.9633	754
69.0246	697
69.0859	671
69.1472	753
69.2085	720
69.2698	780
69.3311	753
69.3924	874
69.4537	834
69.515	810
69.5763	721
69.6376	771
69.6989	798
69.7602	768
69.8215	716
69.8828	749
69.9442	793
70.0055	763
70.0668	804
70.1281	875
70.1894	874
70.2507	867
70.312	852
70.3733	783
70.4346	743
70.4959	726
70.5572	712
70.6185	699
70.6798	680
70.7411	668
70.8024	683
70.8637	720
70.925	662
70.9863	683
71.0476	700
71.1089	646
71.1702	638
71.2315	617
71.2928	584
71.3541	637
71.4155	608
71.4768	631
71.5381	604
71.5994	635
71.6607	593
71.722	678
71.7833	644
71.8446	671
71.9059	673
71.9672	695
72.0285	701
72.0898	714
72.1511	736
72.2124	846
72.2737	856
72.335	870
72.3963	967
72.4576	1022
72.5189	1104
72.5802	1169
72.6415	1139
72.7028	1150
72.7641	1210
72.8254	1099
72.8868	1123
72.9481	1110
73.0094	1137
73.0707	1115
73.1013	1076