File: LOSA/LOSA.txt
2theta	Intensity
3	5469
3.0613	4582
3.12261	4143
3.18391	3595
3.24522	3569
3.30652	3350
3.36783	3268
3.42913	3214
3.49043	3214
3.55174	3276
3.61304	3686
3.67435	3939
3.73565	3464
3.79695	2739
3.85826	2548
3.91956	2427
3.98087	2267
4.04217	2319
4.10348	2180
4.16478	2142
4.22608	2011
4.28739	1998
4.34869	1980
4.41	1923
4.4713	1861
4.5326	1755
4.59391	1796
4.65521	1810
4.71652	1686
4.77782	1613
4.83913	1588
4.90043	1537
4.96173	1501
5.02304	1511
5.08434	1440
5.14565	1414
5.20695	1384
5.26825	1353
5.32956	1419
5.39086	1375
5.45217	1385
5.51347	1313
5.57478	1302
5.63608	1319
5.69738	1242
5.75869	1235
5.81999	1220
5.8813	1155
5.9426	1192
6.0039	1213
6.06521	1131
6.12651	1149
6.18782	1151
6.24912	1149
6.31043	1096
6.37173	1107
6.43303	1105
6.49434	1110
6.55564	1049
6.61695	1055
6.67825	1040
6.73955	996
6.80086	1046
6.86216	1085
6.92347	1031
6.98477	1009
7.04608	1018
7.10738	972
7.16868	949
7.22999	984
7.29129	922
7.3526	942
7.4139	949
7.4752	923
7.53651	869
7.59781	946
7.65912	928
7.72042	898
7.78173	903
7.84303	872
7.90433	895
7.96564	884
8.02694	855
8.08825	864
8.14955	852
8.21085	913
8.27216	852
8.33346	883
8.39477	840
8.45607	853
8.51738	918
8.57868	850
8.63998	935
8.70129	812
8.76259	862
8.8239	869
8.8852	799
8.9465	823
9.00781	851
9.06911	825
9.13042	799
9.19172	772
9.25303	795
9.31433	785
9.37563	811
9.43694	768
9.49824	758
9.55955	751
9.62085	777
9.68215	807
9.74346	759
9.80476	725
9.86607	738
9.92737	759
9.98868	772
10.05	706
10.1113	763
10.1726	731
10.2339	745
10.2952	750
10.3565	752
10.4178	755
10.4791	812
10.5404	775
10.6017	805
10.663	796
10.7243	836
10.7856	945
10.8469	898
10.9082	899
10.9695	933
11.0308	925
11.0922	950
11.1535	1030
11.2148	1145
11.2761	1157
11.3374	1228
11.3987	1094
11.46	981
11.5213	909
11.5826	834
11.6439	813
11.7052	764
11.7665	717
11.8278	730
11.8891	717
11.9504	661
12.0117	703
12.073	671
12.1343	631
12.1956	655
12.2569	625
12.3182	664
12.3795	629
12.4408	629
12.5021	641
12.5635	672
12.6248	677
12.6861	552
12.7474	604
12.8087	623
12.87	611
12.9313	591
12.9926	581
13.0539	633
13.1152	581
13.1765	569
13.2378	595
13.2991	625
13.3604	573
13.4217	605
13.483	641
13.5443	660
13.6056	640
13.6669	584
13.7282	591
13.7895	539
13.8508	607
13.9121	521
13.9734	600
14.0348	539
14.0961	566
14.1574	572
14.2187	564
14.28	558
14.3413	557
14.4026	587
14.4639	584
14.5252	530
14.5865	535
14.6478	531
14.7091	544
14.7704	550
14.8317	594
14.893	609
14.9543	597
15.0156	586
15.0769	611
15.1382	610
15.1995	583
15.2608	570
15.3221	516
15.3834	564
15.4447	530
15.5061	576
15.5674	577
15.6287	533
15.69	563
15.7513	592
15.8126	568
15.8739	587
15.9352	557
15.9965	587
16.0578	571
16.1191	581
16.1804	555
16.2417	606
16.303	577
16.3643	572
16.4256	565
16.4869	581
16.5482	542
16.6095	569
16.6708	607
16.7321	578
16.7934	600
16.8547	560
16.916	568
16.9774	568
17.0387	593
17.1	553
17.1613	584
17.2226	583
17.2839	655
17.3452	676
17.4065	691
17.4678	713
17.5291	747
17.5904	699
17.6517	643
17.713	685
17.7743	753
17.8356	897
17.8969	1240
17.9582	3209
18.0195	6802
18.0808	3255
18.1421	1110
18.2034	949
18.2647	957
18.326	1059
18.3873	1229
18.4487	1804
18.51	2017
18.5713	1442
18.6326	964
18.6939	793
18.7552	730
18.8165	696
18.8778	675
18.9391	631
19.0004	629
19.0617	611
19.123	609
19.1843	610
19.2456	610
19.3069	601
19.3682	576
19.4295	619
19.4908	639
19.5521	645
19.6134	671
19.6747	697
19.736	747
19.7973	643
19.8586	673
19.92	662
19.9813	611
20.0426	627
20.1039	662
20.1652	666
20.2265	638
20.2878	618
20.3491	617
20.4104	622
20.4717	624
20.533	602
20.5943	583
20.6556	676
20.7169	751
20.7782	1670
20.8395	2302
20.9008	1415
20.9621	1184
21.0234	917
21.0847	650
21.146	619
21.2073	606
21.2686	608
21.3299	625
21.3913	577
21.4526	599
21.5139	644
21.5752	659
21.6365	663
21.6978	638
21.7591	697
21.8204	686
21.8817	647
21.943	664
22.0043	636
22.0656	676
22.1269	643
22.1882	677
22.2495	693
22.3108	713
22.3721	699
22.4334	813
22.4947	817
22.556	787
22.6173	762
22.6786	812
22.7399	842
22.8012	939
22.8626	959
22.9239	1188
22.9852	2284
23.0465	3339
23.1078	1994
23.1691	1027
23.2304	883
23.2917	832
23.353	869
23.4143	998
23.4756	1031
23.5369	919
23.5982	798
23.6595	787
23.7208	756
23.7821	787
23.8434	745
23.9047	863
23.966	866
24.0273	851
24.0886	855
24.1499	742
24.2112	664
24.2725	699
24.3339	653
24.3952	713
24.4565	711
24.5178	764
24.5791	744
24.6404	760
24.7017	732
24.763	725
24.8243	734
24.8856	700
24.9469	735
25.0082	794
25.0695	766
25.1308	763
25.1921	801
25.2534	906
25.3147	869
25.376	832
25.4373	827
25.4986	910
25.5599	974
25.6212	1155
25.6825	1161
25.7438	1044
25.8052	920
25.8665	862
25.9278	832
25.9891	863
26.0504	875
26.1117	839
26.173	850
26.2343	875
26.2956	968
26.3569	1074
26.4182	1222
26.4795	1629
26.5408	4096
26.6021	11989
26.6634	7486
26.7247	2240
26.786	1574
26.8473	1330
26.9086	1163
26.9699	1237
27.0312	1282
27.0925	1312
27.1538	1149
27.2151	1040
27.2765	1085
27.3378	1118
27.3991	1223
27.4604	1346
27.5217	1365
27.583	1363
27.6443	1218
27.7056	1077
27.7669	1110
27.8282	1065
27.8895	1123
27.9508	1111
28.0121	1085
28.0734	1038
28.1347	1037
28.196	1100
28.2573	1124
28.3186	1119
28.3799	1127
28.4412	1114
28.5025	1227
28.5638	1481
28.6251	2119
28.6864	1964
28.7478	1528
28.8091	1480
28.8704	1517
28.9317	1576
28.993	1745
29.0543	1871
29.1156	2144
29.1769	2661
29.2382	4007
29.2995	9484
29.3608	22653
29.4221	18524
29.4834	9570
29.5447	3713
29.606	2535
29.6673	2092
29.7286	2013
29.7899	1873
29.8512	1857
29.9125	1608
29.9738	1499
30.0351	1476
30.0964	1394
30.1577	1301
30.2191	1257
30.2804	1189
30.3417	1243
30.403	1290
30.4643	1180
30.5256	1231
30.5869	1200
30.6482	1334
30.7095	1568
30.7708	1688
30.8321	1753
30.8934	1599
30.9547	1399
31.016	1249
31.0773	1372
31.1386	1504
31.1999	1771
31.2612	1681
31.3225	1631
31.3838	1654
31.4451	1669
31.5064	1582
31.5677	1262
31.629	1164
31.6904	1097
31.7517	1086
31.813	1111
31.8743	1292
31.9356	1308
31.9969	1234
32.0582	1174
32.1195	1140
32.1808	1122
32.2421	1102
32.3034	1140
32.3647	1026
32.426	1055
32.4873	1066
32.5486	1141
32.6099	1156
32.6712	1202
32.7325	1013
32.7938	967
32.8551	880
32.9164	966
32.9777	991
33.039	1045
33.1003	1197
33.1617	1165
33.223	1121
33.2843	980
33.3456	1008
33.4069	1017
33.4682	1008
33.5295	985
33.5908	892
33.6521	957
33.7134	1055
33.7747	1152
33.836	1227
33.8973	1476
33.9586	2342
34.0199	4756
34.0812	4879
34.1425	3678
34.2038	2031
34.2651	1428
34.3264	1222
34.3877	1106
34.449	1111
34.5103	1035
34.5716	1070
34.633	1010
34.6943	994
34.7556	1033
34.8169	953
34.8782	881
34.9395	912
35.0008	901
35.0621	897
35.1234	934
35.1847	869
35.246	863
35.3073	948
35.3686	947
35.4299	1060
35.4912	1071
35.5525	1140
35.6138	1134
35.6751	1129
35.7364	1038
35.7977	1174
35.859	1599
35.9203	2656
35.9816	3195
36.0429	2403
36.1043	1371
36.1656	932
36.2269	871
36.2882	771
36.3495	794
36.4108	842
36.4721	1185
36.5334	1076
36.5947	1021
36.656	874
36.7173	753
36.7786	719
36.8399	713
36.9012	756
36.9625	695
37.0238	764
37.0851	780
37.1464	832
37.2077	859
37.269	856
37.3303	932
37.3916	894
37.4529	940
37.5142	1077
37.5756	1250
37.6369	1673
37.6982	1964
37.7595	2008
37.8208	1926
37.8821	1512
37.9434	1293
38.0047	1101
38.066	980
38.1273	919
38.1886	884
38.2499	834
38.3112	809
38.3725	735
38.4338	780
38.4951	774
38.5564	798
38.6177	802
38.679	750
38.7403	818
38.8016	796
38.8629	806
38.9242	836
38.9855	869
39.0469	841
39.1082	915
39.1695	1051
39.2308	1235
39.2921	2038
39.3534	3786
39.4147	5235
39.476	3612
39.5373	2544
39.5986	1309
39.6599	913
39.7212	823
39.7825	774
39.8438	758
39.9051	747
39.9664	710
40.0277	731
40.089	708
40.1503	645
40.2116	877
40.2729	867
40.3342	776
40.3955	723
40.4568	680
40.5182	705
40.5795	696
40.6408	692
40.7021	732
40.7634	736
40.8247	800
40.886	807
40.9473	835
41.0086	823
41.0699	894
41.1312	797
41.1925	701
41.2538	657
41.3151	703
41.3764	682
41.4377	721
41.499	719
41.5603	725
41.6216	757
41.6829	713
41.7442	735
41.8055	683
41.8668	700
41.9281	732
41.9895	641
42.0508	709
42.1121	649
42.1734	662
42.2347	724
42.296	793
42.3573	961
42.4186	1022
42.4799	908
42.5412	877
42.6025	772
42.6638	802
42.7251	757
42.7864	806
42.8477	960
42.909	1031
42.9703	1203
43.0316	1639
43.0929	2639
43.1542	4789
43.2155	2769
43.2768	2800
43.3381	1343
43.3994	961
43.4608	873
43.5221	785
43.5834	779
43.6447	760
43.706	712
43.7673	722
43.8286	767
43.8899	763
43.9512	748
44.0125	707
44.0738	711
44.1351	712
44.1964	734
44.2577	700
44.319	785
44.3803	752
44.4416	796
44.5029	739
44.5642	727
44.6255	705
44.6868	768
44.7481	771
44.8094	816
44.8707	849
44.9321	812
44.9934	869
45.0547	784
45.116	796
45.1773	774
45.2386	704
45.2999	742
45.3612	765
45.4225	725
45.4838	790
45.5451	767
45.6064	746
45.6677	787
45.729	962
45.7903	972
45.8516	949
45.9129	858
45.9742	810
46.0355	778
46.0968	752
46.1581	809
46.2194	854
46.2807	822
46.342	816
46.4034	844
46.4647	777
46.526	817
46.5873	805
46.6486	811
46.7099	806
46.7712	955
46.8325	1017
46.8938	1209
46.9551	1550
47.0164	2529
47.0777	3523
47.139	3074
47.2003	2703
47.2616	2017
47.3229	1793
47.3842	2357
47.4455	3541
47.5068	3787
47.5681	3001
47.6294	2390
47.6907	1549
47.752	1088
47.8133	937
47.8747	886
47.936	737
47.9973	823
48.0586	807
48.1199	843
48.1812	843
48.2425	994
48.3038	1170
48.3651	1791
48.4264	3141
48.4877	3671
48.549	3146
48.6103	2511
48.6716	1798
48.7329	1115
48.7942	832
48.8555	775
48.9168	801
48.9781	807
49.0394	857
49.1007	890
49.162	801
49.2233	802
49.2846	828
49.346	817
49.4073	823
49.4686	872
49.5299	854
49.5912	800
49.6525	866
49.7138	809
49.7751	815
49.8364	843
49.8977	801
49.959	857
50.0203	1177
50.0816	1797
50.1429	1332
50.2042	1322
50.2655	1312
50.3268	1162
50.3881	1195
50.4494	1307
50.5107	1346
50.572	1422
50.6333	1508
50.6946	1920
50.7559	2193
50.8173	1760
50.8786	1641
50.9399	1316
51.0012	1027
51.0625	853
51.1238	798
51.1851	741
51.2464	699
51.3077	683
51.369	640
51.4303	697
51.4916	656
51.5529	644
51.6142	715
51.6755	714
51.7368	702
51.7981	697
51.8594	690
51.9207	719
51.982	666
52.0433	657
52.1046	619
52.1659	582
52.2272	633
52.2886	631
52.3499	590
52.4112	598
52.4725	604
52.5338	571
52.5951	554
52.6564	551
52.7177	613
52.779	639
52.8403	605
52.9016	601
52.9629	652
53.0242	604
53.0855	607
53.1468	633
53.2081	567
53.2694	542
53.3307	556
53.392	565
53.4533	572
53.5146	603
53.5759	552
53.6372	581
53.6985	574
53.7599	558
53.8212	626
53.8825	623
53.9438	667
54.0051	741
54.0664	715
54.1277	775
54.189	855
54.2503	1075
54.3116	1273
54.3729	999
54.4342	972
54.4955	847
54.5568	657
54.6181	603
54.6794	587
54.7407	707
54.802	855
54.8633	798
54.9246	701
54.9859	779
55.0472	660
55.1085	628
55.1698	672
55.2312	698
55.2925	689
55.3538	675
55.4151	680
55.4764	679
55.5377	612
55.599	533
55.6603	566
55.7216	523
55.7829	546
55.8442	541
55.9055	578
55.9668	563
56.0281	591
56.0894	565
56.1507	572
56.212	586
56.2733	625
56.3346	568
56.3959	714
56.4572	760
56.5185	932
56.5798	1055
56.6411	881
56.7025	838
56.7638	706
56.8251	579
56.8864	570
56.9477	574
57.009	558
57.0703	607
57.1316	644
57.1929	781
57.2542	918
57.3155	1266
57.3768	1713
57.4381	1640
57.4994	1314
57.5607	1230
57.622	900
57.6833	692
57.7446	693
57.8059	583
57.8672	576
57.9285	679
57.9898	687
58.0511	752
58.1124	777
58.1738	812
58.2351	776
58.2964	692
58.3577	676
58.419	708
58.4803	669
58.5416	601
58.6029	606
58.6642	571
58.7255	575
58.7868	562
58.8481	545
58.9094	533
58.9707	509
59.032	526
59.0933	509
59.1546	507
59.2159	569
59.2772	628
59.3385	615
59.3998	557
59.4611	594
59.5224	551
59.5837	591
59.6451	545
59.7064	584
59.7677	599
59.829	735
59.8903	1198
59.9516	908
60.0129	778
60.0742	941
60.1355	687
60.1968	569
60.2581	569
60.3194	586
60.3807	573
60.442	629
60.5033	731
60.5646	887
60.6259	1189
60.6872	1405
60.7485	1110
60.8098	1071
60.8711	1069
60.9324	957
60.9937	989
61.055	878
61.1164	880
61.1777	809
61.239	782
61.3003	818
61.3616	915
61.4229	828
61.4842	828
61.5455	726
61.6068	717
61.6681	632
61.7294	612
61.7907	594
61.852	538
61.9133	560
61.9746	571
62.0359	565
62.0972	484
62.1585	584
62.2198	526
62.2811	606
62.3424	613
62.4037	644
62.465	772
62.5263	840
62.5877	852
62.649	771
62.7103	750
62.7716	679
62.8329	671
62.8942	639
62.9555	677
63.0168	698
63.0781	767
63.1394	656
63.2007	665
63.262	626
63.3233	611
63.3846	560
63.4459	535
63.5072	547
63.5685	496
63.6298	506
63.6911	533
63.7524	483
63.8137	492
63.875	558
63.9363	630
63.9976	702
64.059	729
64.1203	890
64.1816	951
64.2429	864
64.3042	733
64.3655	764
64.4268	747
64.4881	772
64.5494	823
64.6107	1014
64.672	1253
64.7333	1013
64.7946	914
64.8559	843
64.9172	753
64.9785	583
65.0398	516
65.1011	511
65.1624	473
65.2237	487
65.285	467
65.3463	488
65.4076	564
65.4689	524
65.5303	717
65.5916	806
65.6529	677
65.7142	706
65.7755	603
65.8368	521
65.8981	444
65.9594	417
66.0207	384
66.082	394
66.1433	440
66.2046	394
66.2659	468
66.3272	410
66.3885	414
66.4498	416
66.5111	380
66.5724	376
66.6337	369
66.695	354
66.7563	407
66.8176	422
66.8789	373
66.9402	372
67.0016	420
67.0629	370
67.1242	403
67.1855	423
67.2468	414
67.3081	419
67.3694	407
67.4307	451
67.492	473
67.5533	474
67.6146	573
67.6759	799
67.7372	674
67.7985	573
67.8598	702
67.9211	650
67.9824	625
68.0437	782
68.105	1022
68.1663	733
68.2276	726
68.2889	836
68.3502	584
68.4115	491
68.4729	527
68.5342	434
68.5955	411
68.6568	391
68.7181	386
68.7794	369
68.8407	376
68.902	377
68.9633	416
69.0246	460
69.0859	470
69.1472	485
69.2085	502
69.2698	490
69.3311	441
69.3924	411
69.4537	440
69.515	373
69.5763	354
69.6376	414
69.6989	375
69.7602	407
69.8215	385
69.8828	403
69.9442	373
70.0055	445
70.0668	481
70.1281	479
70.1894	538
70.2507	536
70.312	542
70.3733	520
70.4346	455
70.4959	436
70.5572	409
70.6185	428
70.6798	382
70.7411	395
70.8024	379
70.8637	388
70.925	362
70.9863	371
71.0476	413
71.1089	412
71.1702	391
71.2315	376
71.2928	422
71.3541	429
71.4155	474
71.4768	488
71.5381	479
71.5994	484
71.6607	589
71.722	651
71.7833	592
71.8446	536
71.9059	554
71.9672	562
72.0285	472
72.0898	465
72.1511	419
72.2124	423
72.2737	413
72.335	375
72.3963	357
72.4576	390
72.5189	423
72.5802	447
72.6415	414
72.7028	472
72.7641	556
72.8254	616
72.8868	732
72.9481	638
73.0094	639
73.0707	607
73.1013	594