File: Arumetsa/Aru_XRD.txt
2theta	Intensity
3	7713
3.0613	6732
3.12261	6055
3.18391	5651
3.24522	5341
3.30652	5244
3.36783	4994
3.42913	4668
3.49043	4516
3.55174	4360
3.61304	4263
3.67435	4069
3.73565	3981
3.79695	3881
3.85826	3695
3.91956	3566
3.98087	3409
4.04217	3348
4.10348	3217
4.16478	3158
4.22608	3100
4.28739	2895
4.34869	2825
4.41	2680
4.4713	2716
4.5326	2577
4.59391	2540
4.65521	2516
4.71652	2416
4.77782	2318
4.83913	2237
4.90043	2282
4.96173	2258
5.02304	2130
5.08434	2057
5.14565	1994
5.20695	1964
5.26825	2043
5.32956	1975
5.39086	1947
5.45217	1883
5.51347	1878
5.57478	1820
5.63608	1856
5.69738	1788
5.75869	1749
5.81999	1748
5.8813	1872
5.9426	1886
6.0039	1902
6.06521	1977
6.12651	1968
6.18782	2060
6.24912	1980
6.31043	1844
6.37173	1803
6.43303	1805
6.49434	1691
6.55564	1686
6.61695	1654
6.67825	1615
6.73955	1621
6.80086	1583
6.86216	1596
6.92347	1635
6.98477	1595
7.04608	1621
7.10738	1613
7.16868	1704
7.22999	1630
7.29129	1644
7.3526	1639
7.4139	1633
7.4752	1688
7.53651	1635
7.59781	1789
7.65912	1720
7.72042	1742
7.78173	1820
7.84303	1850
7.90433	1886
7.96564	1804
8.02694	1873
8.08825	1979
8.14955	2051
8.21085	2122
8.27216	2280
8.33346	2378
8.39477	2479
8.45607	2613
8.51738	2844
8.57868	3059
8.63998	3355
8.70129	3742
8.76259	4077
8.8239	4345
8.8852	3459
8.9465	2551
9.00781	2068
9.06911	1887
9.13042	1610
9.19172	1417
9.25303	1267
9.31433	1186
9.37563	1090
9.43694	976
9.49824	1005
9.55955	931
9.62085	897
9.68215	861
9.74346	921
9.80476	898
9.86607	820
9.92737	789
9.98868	736
10.05	772
10.1113	743
10.1726	822
10.2339	753
10.2952	767
10.3565	842
10.4178	1018
10.4791	1025
10.5404	851
10.6017	757
10.663	747
10.7243	758
10.7856	712
10.8469	769
10.9082	793
10.9695	739
11.0308	773
11.0922	783
11.1535	729
11.2148	787
11.2761	750
11.3374	774
11.3987	794
11.46	808
11.5213	787
11.5826	849
11.6439	837
11.7052	893
11.7665	926
11.8278	1047
11.8891	1117
11.9504	1124
12.0117	1396
12.073	1533
12.1343	1818
12.1956	2246
12.2569	3124
12.3182	4276
12.3795	3955
12.4408	2862
12.5021	2378
12.5635	1716
12.6248	1300
12.6861	1005
12.7474	1011
12.8087	881
12.87	774
12.9313	735
12.9926	699
13.0539	660
13.1152	676
13.1765	651
13.2378	637
13.2991	600
13.3604	612
13.4217	570
13.483	586
13.5443	629
13.6056	701
13.6669	627
13.7282	610
13.7895	631
13.8508	710
13.9121	599
13.9734	562
14.0348	537
14.0961	507
14.1574	506
14.2187	554
14.28	503
14.3413	512
14.4026	506
14.4639	501
14.5252	478
14.5865	498
14.6478	543
14.7091	495
14.7704	477
14.8317	502
14.893	576
14.9543	549
15.0156	614
15.0769	570
15.1382	567
15.1995	540
15.2608	495
15.3221	486
15.3834	466
15.4447	469
15.5061	471
15.5674	491
15.6287	519
15.69	517
15.7513	489
15.8126	451
15.8739	448
15.9352	460
15.9965	465
16.0578	436
16.1191	464
16.1804	452
16.2417	480
16.303	486
16.3643	457
16.4256	490
16.4869	488
16.5482	469
16.6095	513
16.6708	504
16.7321	504
16.7934	527
16.8547	494
16.916	497
16.9774	491
17.0387	503
17.1	545
17.1613	528
17.2226	591
17.2839	601
17.3452	637
17.4065	696
17.4678	741
17.5291	760
17.5904	878
17.6517	1041
17.713	1220
17.7743	1249
17.8356	1123
17.8969	942
17.9582	894
18.0195	817
18.0808	788
18.1421	789
18.2034	731
18.2647	713
18.326	714
18.3873	657
18.4487	701
18.51	681
18.5713	757
18.6326	787
18.6939	805
18.7552	812
18.8165	759
18.8778	677
18.9391	684
19.0004	708
19.0617	778
19.123	904
19.1843	1040
19.2456	1146
19.3069	1114
19.3682	1197
19.4295	1324
19.4908	1546
19.5521	2050
19.6134	2850
19.6747	3777
19.736	4228
19.7973	4549
19.8586	4119
19.92	3269
19.9813	2629
20.0426	2342
20.1039	2133
20.1652	2087
20.2265	2078
20.2878	2309
20.3491	2217
20.4104	2097
20.4717	1833
20.533	1784
20.5943	1832
20.6556	1796
20.7169	2077
20.7782	3866
20.8395	6543
20.9008	3870
20.9621	2645
21.0234	2207
21.0847	1725
21.146	1699
21.2073	1731
21.2686	1741
21.3299	1579
21.3913	1544
21.4526	1521
21.5139	1485
21.5752	1405
21.6365	1276
21.6978	1226
21.7591	1155
21.8204	1102
21.8817	1176
21.943	1725
22.0043	2096
22.0656	1576
22.1269	1177
22.1882	1081
22.2495	1191
22.3108	1236
22.3721	1206
22.4334	1304
22.4947	1307
22.556	1270
22.6173	1122
22.6786	1218
22.7399	1207
22.8012	1423
22.8626	1695
22.9239	1643
22.9852	1635
23.0465	1569
23.1078	1490
23.1691	1459
23.2304	1474
23.2917	1325
23.353	1374
23.4143	1562
23.4756	1809
23.5369	1969
23.5982	1938
23.6595	1629
23.7208	1682
23.7821	1821
23.8434	1741
23.9047	1730
23.966	1827
24.0273	1739
24.0886	1706
24.1499	1827
24.2112	1926
24.2725	2075
24.3339	1963
24.3952	1834
24.4565	1749
24.5178	1731
24.5791	1849
24.6404	1850
24.7017	2190
24.763	2510
24.8243	3480
24.8856	3631
24.9469	2935
25.0082	2693
25.0695	2561
25.1308	2646
25.1921	2633
25.2534	2863
25.3147	2601
25.376	2365
25.4373	2465
25.4986	2650
25.5599	2426
25.6212	2409
25.6825	2103
25.7438	1770
25.8052	1668
25.8665	1664
25.9278	1621
25.9891	1678
26.0504	1733
26.1117	1706
26.173	1916
26.2343	2133
26.2956	2392
26.3569	2894
26.4182	3393
26.4795	4372
26.5408	9473
26.6021	28198
26.6634	17845
26.7247	6903
26.786	4720
26.8473	3817
26.9086	3157
26.9699	3014
27.0312	3241
27.0925	2914
27.1538	2489
27.2151	2171
27.2765	1984
27.3378	2265
27.3991	2839
27.4604	3201
27.5217	2795
27.583	2264
27.6443	2185
27.7056	2646
27.7669	2949
27.8282	2963
27.8895	3303
27.9508	3087
28.0121	2308
28.0734	1878
28.1347	1671
28.196	1671
28.2573	1684
28.3186	1612
28.3799	1536
28.4412	1480
28.5025	1464
28.5638	1426
28.6251	1394
28.6864	1286
28.7478	1198
28.8091	1311
28.8704	1187
28.9317	1183
28.993	1235
29.0543	1238
29.1156	1283
29.1769	1292
29.2382	1260
29.2995	1257
29.3608	1613
29.4221	1776
29.4834	1701
29.5447	1455
29.606	1430
29.6673	1605
29.7286	1731
29.7899	1952
29.8512	1976
29.9125	1703
29.9738	1582
30.0351	1389
30.0964	1378
30.1577	1408
30.2191	1393
30.2804	1440
30.3417	1436
30.403	1438
30.4643	1443
30.5256	1424
30.5869	1190
30.6482	1219
30.7095	1533
30.7708	1694
30.8321	1680
30.8934	1691
30.9547	1427
31.016	1158
31.0773	1147
31.1386	1252
31.1999	1314
31.2612	1275
31.3225	1262
31.3838	1213
31.4451	1054
31.5064	1057
31.5677	986
31.629	929
31.6904	926
31.7517	970
31.813	1037
31.8743	1048
31.9356	1175
31.9969	1217
32.0582	1145
32.1195	1064
32.1808	1071
32.2421	983
32.3034	957
32.3647	976
32.426	956
32.4873	914
32.5486	820
32.6099	860
32.6712	801
32.7325	818
32.7938	842
32.8551	984
32.9164	1062
32.9777	1169
33.039	1205
33.1003	1255
33.1617	1167
33.223	1089
33.2843	1051
33.3456	1011
33.4069	1023
33.4682	1007
33.5295	963
33.5908	1012
33.6521	1051
33.7134	982
33.7747	1164
33.836	1136
33.8973	1209
33.9586	1305
34.0199	1492
34.0812	1701
34.1425	1691
34.2038	1719
34.2651	1798
34.3264	1930
34.3877	2115
34.449	2297
34.5103	2767
34.5716	2802
34.633	2859
34.6943	2865
34.7556	3113
34.8169	3318
34.8782	3825
34.9395	3834
35.0008	3565
35.0621	2998
35.1234	2552
35.1847	2179
35.246	1912
35.3073	1897
35.3686	1820
35.4299	1721
35.4912	1761
35.5525	1923
35.6138	1754
35.6751	1672
35.7364	1574
35.7977	1537
35.859	1551
35.9203	1621
35.9816	1592
36.0429	1597
36.1043	1440
36.1656	1298
36.2269	1253
36.2882	1301
36.3495	1374
36.4108	1595
36.4721	2628
36.5334	2664
36.5947	2390
36.656	1968
36.7173	1839
36.7786	1916
36.8399	1810
36.9012	1763
36.9625	1692
37.0238	1743
37.0851	1595
37.1464	1584
37.2077	1571
37.269	1614
37.3303	1609
37.3916	1731
37.4529	1787
37.5142	1871
37.5756	1963
37.6369	1989
37.6982	2005
37.7595	1915
37.8208	1683
37.8821	1470
37.9434	1317
38.0047	1135
38.066	1086
38.1273	1134
38.1886	1187
38.2499	1321
38.3112	1469
38.3725	1498
38.4338	1480
38.4951	1458
38.5564	1298
38.6177	1195
38.679	1005
38.7403	928
38.8016	944
38.8629	906
38.9242	876
38.9855	916
39.0469	951
39.1082	1022
39.1695	1097
39.2308	1139
39.2921	1156
39.3534	1396
39.4147	2411
39.476	1688
39.5373	1708
39.5986	1086
39.6599	963
39.7212	942
39.7825	969
39.8438	1002
39.9051	1136
39.9664	1196
40.0277	1163
40.089	1131
40.1503	1107
40.2116	1405
40.2729	1583
40.3342	1271
40.3955	1048
40.4568	919
40.5182	880
40.5795	933
40.6408	905
40.7021	1016
40.7634	1008
40.8247	1029
40.886	1077
40.9473	1136
41.0086	1133
41.0699	1174
41.1312	1110
41.1925	1171
41.2538	1207
41.3151	1221
41.3764	1183
41.4377	1096
41.499	1072
41.5603	1133
41.6216	1111
41.6829	1203
41.7442	1269
41.8055	1208
41.8668	1158
41.9281	1089
41.9895	1048
42.0508	1061
42.1121	1050
42.1734	1086
42.2347	1220
42.296	1326
42.3573	1705
42.4186	2241
42.4799	1467
42.5412	1443
42.6025	1078
42.6638	1027
42.7251	902
42.7864	896
42.8477	857
42.909	810
42.9703	774
43.0316	773
43.0929	803
43.1542	813
43.2155	780
43.2768	740
43.3381	780
43.3994	750
43.4608	729
43.5221	785
43.5834	778
43.6447	736
43.706	732
43.7673	727
43.8286	727
43.8899	808
43.9512	760
44.0125	821
44.0738	723
44.1351	771
44.1964	769
44.2577	741
44.319	720
44.3803	774
44.4416	737
44.5029	773
44.5642	805
44.6255	881
44.6868	912
44.7481	933
44.8094	1020
44.8707	1151
44.9321	1156
44.9934	1196
45.0547	1242
45.116	1279
45.1773	1255
45.2386	1373
45.2999	1484
45.3612	1586
45.4225	1540
45.4838	1516
45.5451	1458
45.6064	1440
45.6677	1440
45.729	1814
45.7903	1553
45.8516	1479
45.9129	1279
45.9742	1083
46.0355	1084
46.0968	1010
46.1581	880
46.2194	854
46.2807	800
46.342	797
46.4034	800
46.4647	797
46.526	775
46.5873	731
46.6486	707
46.7099	740
46.7712	783
46.8325	713
46.8938	720
46.9551	780
47.0164	708
47.0777	701
47.139	764
47.2003	686
47.2616	671
47.3229	624
47.3842	655
47.4455	719
47.5068	696
47.5681	687
47.6294	645
47.6907	650
47.752	613
47.8133	661
47.8747	720
47.936	732
47.9973	766
48.0586	767
48.1199	770
48.1812	672
48.2425	638
48.3038	684
48.3651	626
48.4264	652
48.4877	634
48.549	624
48.6103	636
48.6716	610
48.7329	574
48.7942	618
48.8555	621
48.9168	590
48.9781	635
49.0394	604
49.1007	681
49.162	666
49.2233	670
49.2846	739
49.346	725
49.4073	706
49.4686	706
49.5299	725
49.5912	698
49.6525	669
49.7138	678
49.7751	705
49.8364	726
49.8977	787
49.959	800
50.0203	1351
50.0816	3004
50.1429	1814
50.2042	1603
50.2655	1375
50.3268	728
50.3881	675
50.4494	761
50.5107	834
50.572	927
50.6333	901
50.6946	908
50.7559	819
50.8173	735
50.8786	780
50.9399	655
51.0012	725
51.0625	743
51.1238	645
51.1851	618
51.2464	585
51.3077	588
51.369	551
51.4303	525
51.4916	466
51.5529	521
51.6142	515
51.6755	479
51.7368	475
51.7981	432
51.8594	433
51.9207	461
51.982	487
52.0433	488
52.1046	509
52.1659	522
52.2272	563
52.2886	542
52.3499	629
52.4112	581
52.4725	566
52.5338	601
52.5951	599
52.6564	675
52.7177	687
52.779	642
52.8403	667
52.9016	700
52.9629	632
53.0242	618
53.0855	665
53.1468	778
53.2081	704
53.2694	760
53.3307	760
53.392	750
53.4533	812
53.5146	802
53.5759	885
53.6372	906
53.6985	895
53.7599	990
53.8212	1063
53.8825	1090
53.9438	1077
54.0051	1122
54.0664	1121
54.1277	1062
54.189	1104
54.2503	1105
54.3116	1176
54.3729	1169
54.4342	1208
54.4955	1139
54.5568	1238
54.6181	1276
54.6794	1256
54.7407	1344
54.802	1815
54.8633	1767
54.9246	1679
54.9859	1751
55.0472	1561
55.1085	1466
55.1698	1492
55.2312	1512
55.2925	1703
55.3538	1482
55.4151	1490
55.4764	1380
55.5377	1282
55.599	1323
55.6603	1306
55.7216	1290
55.7829	1255
55.8442	1226
55.9055	1197
55.9668	1147
56.0281	1109
56.0894	1046
56.1507	1021
56.212	1051
56.2733	1048
56.3346	1027
56.3959	996
56.4572	945
56.5185	919
56.5798	1000
56.6411	899
56.7025	996
56.7638	952
56.8251	992
56.8864	895
56.9477	842
57.009	899
57.0703	781
57.1316	808
57.1929	815
57.2542	797
57.3155	826
57.3768	852
57.4381	828
57.4994	819
57.5607	805
57.622	829
57.6833	783
57.7446	777
57.8059	766
57.8672	740
57.9285	752
57.9898	782
58.0511	700
58.1124	740
58.1738	692
58.2351	714
58.2964	684
58.3577	716
58.419	710
58.4803	703
58.5416	738
58.6029	706
58.6642	782
58.7255	742
58.7868	752
58.8481	782
58.9094	735
58.9707	704
59.032	735
59.0933	740
59.1546	740
59.2159	832
59.2772	823
59.3385	865
59.3998	831
59.4611	829
59.5224	888
59.5837	966
59.6451	974
59.7064	1071
59.7677	1234
59.829	1600
59.8903	2690
59.9516	2297
60.0129	1812
60.0742	2192
60.1355	1478
60.1968	1282
60.2581	1154
60.3194	1122
60.3807	972
60.442	993
60.5033	941
60.5646	962
60.6259	1018
60.6872	993
60.7485	959
60.8098	976
60.8711	901
60.9324	1003
60.9937	967
61.055	986
61.1164	1025
61.1777	1081
61.239	1140
61.3003	1240
61.3616	1367
61.4229	1452
61.4842	1644
61.5455	1658
61.6068	1788
61.6681	1815
61.7294	1720
61.7907	1533
61.852	1599
61.9133	1368
61.9746	1230
62.0359	1221
62.0972	1285
62.1585	1284
62.2198	1298
62.2811	1219
62.3424	1230
62.4037	1257
62.465	1166
62.5263	986
62.5877	1013
62.649	913
62.7103	850
62.7716	801
62.8329	783
62.8942	709
62.9555	675
63.0168	721
63.0781	752
63.1394	706
63.2007	723
63.262	701
63.3233	667
63.3846	672
63.4459	663
63.5072	633
63.5685	670
63.6298	703
63.6911	734
63.7524	780
63.8137	826
63.875	877
63.9363	1059
63.9976	1164
64.059	930
64.1203	858
64.1816	892
64.2429	696
64.3042	637
64.3655	630
64.4268	589
64.4881	656
64.5494	646
64.6107	646
64.672	663
64.7333	650
64.7946	664
64.8559	642
64.9172	650
64.9785	647
65.0398	695
65.1011	699
65.1624	686
65.2237	712
65.285	677
65.3463	649
65.4076	704
65.4689	641
65.5303	636
65.5916	666
65.6529	618
65.7142	757
65.7755	721
65.8368	602
65.8981	660
65.9594	684
66.0207	605
66.082	608
66.1433	570
66.2046	649
66.2659	661
66.3272	657
66.3885	575
66.4498	601
66.5111	576
66.5724	553
66.6337	594
66.695	552
66.7563	568
66.8176	591
66.8789	614
66.9402	635
67.0016	634
67.0629	604
67.1242	640
67.1855	694
67.2468	628
67.3081	615
67.3694	654
67.4307	658
67.492	679
67.5533	706
67.6146	899
67.6759	1454
67.7372	1257
67.7985	932
67.8598	1051
67.9211	1080
67.9824	854
68.0437	1236
68.105	1911
68.1663	1191
68.2276	1523
68.2889	1835
68.3502	1120
68.4115	1061
68.4729	1088
68.5342	810
68.5955	785
68.6568	733
68.7181	773
68.7794	767
68.8407	758
68.902	768
68.9633	720
69.0246	763
69.0859	763
69.1472	821
69.2085	804
69.2698	827
69.3311	848
69.3924	952
69.4537	840
69.515	839
69.5763	881
69.6376	829
69.6989	801
69.7602	824
69.8215	829
69.8828	805
69.9442	784
70.0055	830
70.0668	834
70.1281	871
70.1894	862
70.2507	899
70.312	848
70.3733	826
70.4346	847
70.4959	737
70.5572	752
70.6185	767
70.6798	739
70.7411	726
70.8024	732
70.8637	756
70.925	699
70.9863	711
71.0476	718
71.1089	765
71.1702	760
71.2315	706
71.2928	755
71.3541	706
71.4155	680
71.4768	696
71.5381	759
71.5994	749
71.6607	696
71.722	737
71.7833	761
71.8446	760
71.9059	806
71.9672	829
72.0285	848
72.0898	840
72.1511	889
72.2124	862
72.2737	933
72.335	963
72.3963	917
72.4576	1007
72.5189	1060
72.5802	1039
72.6415	1095
72.7028	1048
72.7641	1084
72.8254	1044
72.8868	1013
72.9481	1004
73.0094	997
73.0707	944
73.1013	970