File: Aseri/Aseri_XRD.xy
2theta	Intensity
3	7958
3.0613	7002
3.12261	6221
3.18391	5647
3.24522	5371
3.30652	5208
3.36783	4941
3.42913	4763
3.49043	4483
3.55174	4411
3.61304	4222
3.67435	4124
3.73565	3927
3.79695	3760
3.85826	3754
3.91956	3503
3.98087	3400
4.04217	3237
4.10348	3163
4.16478	3045
4.22608	2947
4.28739	2932
4.34869	2746
4.41	2685
4.4713	2616
4.5326	2524
4.59391	2380
4.65521	2361
4.71652	2355
4.77782	2235
4.83913	2103
4.90043	2116
4.96173	2016
5.02304	2036
5.08434	2002
5.14565	1969
5.20695	1911
5.26825	1909
5.32956	1883
5.39086	1855
5.45217	1819
5.51347	1672
5.57478	1694
5.63608	1747
5.69738	1735
5.75869	1680
5.81999	1749
5.8813	1704
5.9426	1767
6.0039	1715
6.06521	1830
6.12651	2115
6.18782	2261
6.24912	2066
6.31043	1766
6.37173	1717
6.43303	1671
6.49434	1565
6.55564	1582
6.61695	1590
6.67825	1578
6.73955	1507
6.80086	1551
6.86216	1577
6.92347	1651
6.98477	1541
7.04608	1638
7.10738	1629
7.16868	1639
7.22999	1637
7.29129	1564
7.3526	1695
7.4139	1689
7.4752	1762
7.53651	1717
7.59781	1790
7.65912	1823
7.72042	1822
7.78173	1885
7.84303	2020
7.90433	2025
7.96564	2061
8.02694	2116
8.08825	2223
8.14955	2380
8.21085	2549
8.27216	2557
8.33346	2889
8.39477	2881
8.45607	3133
8.51738	3382
8.57868	3785
8.63998	4089
8.70129	4898
8.76259	6242
8.8239	8873
8.8852	5525
8.9465	3445
9.00781	2679
9.06911	2273
9.13042	1926
9.19172	1627
9.25303	1343
9.31433	1260
9.37563	1128
9.43694	990
9.49824	927
9.55955	937
9.62085	895
9.68215	857
9.74346	764
9.80476	750
9.86607	735
9.92737	746
9.98868	748
10.05	750
10.1113	667
10.1726	726
10.2339	725
10.2952	754
10.3565	690
10.4178	676
10.4791	739
10.5404	762
10.6017	719
10.663	720
10.7243	756
10.7856	725
10.8469	789
10.9082	744
10.9695	754
11.0308	771
11.0922	677
11.1535	736
11.2148	765
11.2761	744
11.3374	761
11.3987	709
11.46	764
11.5213	795
11.5826	779
11.6439	816
11.7052	837
11.7665	863
11.8278	819
11.8891	921
11.9504	986
12.0117	1045
12.073	1172
12.1343	1360
12.1956	1645
12.2569	2039
12.3182	2576
12.3795	2817
12.4408	2915
12.5021	2594
12.5635	1411
12.6248	1114
12.6861	915
12.7474	800
12.8087	810
12.87	766
12.9313	713
12.9926	682
13.0539	697
13.1152	661
13.1765	665
13.2378	662
13.2991	731
13.3604	647
13.4217	610
13.483	624
13.5443	747
13.6056	836
13.6669	726
13.7282	561
13.7895	520
13.8508	542
13.9121	504
13.9734	592
14.0348	515
14.0961	533
14.1574	503
14.2187	550
14.28	489
14.3413	487
14.4026	518
14.4639	538
14.5252	554
14.5865	484
14.6478	505
14.7091	558
14.7704	549
14.8317	481
14.893	553
14.9543	551
15.0156	606
15.0769	728
15.1382	580
15.1995	510
15.2608	470
15.3221	464
15.3834	462
15.4447	443
15.5061	494
15.5674	487
15.6287	507
15.69	488
15.7513	417
15.8126	477
15.8739	436
15.9352	456
15.9965	448
16.0578	447
16.1191	482
16.1804	450
16.2417	467
16.303	475
16.3643	502
16.4256	445
16.4869	472
16.5482	490
16.6095	513
16.6708	492
16.7321	514
16.7934	508
16.8547	507
16.916	563
16.9774	535
17.0387	580
17.1	595
17.1613	580
17.2226	619
17.2839	617
17.3452	719
17.4065	724
17.4678	800
17.5291	876
17.5904	1023
17.6517	1373
17.713	2075
17.7743	2175
17.8356	1532
17.8969	1192
17.9582	1020
18.0195	941
18.0808	876
18.1421	891
18.2034	837
18.2647	764
18.326	843
18.3873	798
18.4487	805
18.51	838
18.5713	878
18.6326	949
18.6939	992
18.7552	1057
18.8165	884
18.8778	666
18.9391	687
19.0004	618
19.0617	661
19.123	834
19.1843	958
19.2456	1090
19.3069	1044
19.3682	1076
19.4295	1265
19.4908	1672
19.5521	2395
19.6134	3474
19.6747	4637
19.736	4734
19.7973	4683
19.8586	4167
19.92	3037
19.9813	2367
20.0426	2081
20.1039	2079
20.1652	1914
20.2265	1809
20.2878	1788
20.3491	1786
20.4104	1704
20.4717	1673
20.533	1628
20.5943	1702
20.6556	1769
20.7169	2281
20.7782	6911
20.8395	15264
20.9008	6392
20.9621	3144
21.0234	2218
21.0847	1437
21.146	1130
21.2073	1108
21.2686	1112
21.3299	1103
21.3913	1038
21.4526	1087
21.5139	1184
21.5752	1222
21.6365	1118
21.6978	1039
21.7591	931
21.8204	955
21.8817	923
21.943	898
22.0043	887
22.0656	849
22.1269	846
22.1882	966
22.2495	1025
22.3108	1155
22.3721	1206
22.4334	1273
22.4947	1356
22.556	1209
22.6173	1170
22.6786	1087
22.7399	1178
22.8012	1437
22.8626	1614
22.9239	1500
22.9852	1364
23.0465	1241
23.1078	1183
23.1691	1232
23.2304	1266
23.2917	1298
23.353	1462
23.4143	1694
23.4756	1893
23.5369	1891
23.5982	1642
23.6595	1653
23.7208	1787
23.7821	1907
23.8434	1805
23.9047	1601
23.966	1724
24.0273	1635
24.0886	1514
24.1499	1543
24.2112	1516
24.2725	1633
24.3339	1689
24.3952	1679
24.4565	1731
24.5178	1762
24.5791	1760
24.6404	1715
24.7017	1816
24.763	1993
24.8243	2278
24.8856	2409
24.9469	2502
25.0082	2512
25.0695	2653
25.1308	2868
25.1921	2813
25.2534	3055
25.3147	2706
25.376	2542
25.4373	2908
25.4986	2954
25.5599	2722
25.6212	2865
25.6825	2500
25.7438	2171
25.8052	1785
25.8665	1832
25.9278	1808
25.9891	1758
26.0504	1777
26.1117	1895
26.173	2051
26.2343	2122
26.2956	2392
26.3569	3045
26.4182	3966
26.4795	6057
26.5408	16992
26.6021	69816
26.6634	41368
26.7247	12857
26.786	8917
26.8473	6719
26.9086	5146
26.9699	4311
27.0312	4250
27.0925	3760
27.1538	3011
27.2151	2679
27.2765	2545
27.3378	2854
27.3991	4526
27.4604	4798
27.5217	4174
27.583	3182
27.6443	2427
27.7056	2196
27.7669	2348
27.8282	2480
27.8895	2134
27.9508	1693
28.0121	1534
28.0734	1447
28.1347	1455
28.196	1386
28.2573	1304
28.3186	1359
28.3799	1296
28.4412	1337
28.5025	1405
28.5638	1335
28.6251	1377
28.6864	1300
28.7478	1322
28.8091	1371
28.8704	1364
28.9317	1421
28.993	1351
29.0543	1462
29.1156	1531
29.1769	1411
29.2382	1390
29.2995	1404
29.3608	1459
29.4221	1450
29.4834	1451
29.5447	1418
29.606	1595
29.6673	1742
29.7286	2201
29.7899	2802
29.8512	2683
29.9125	2264
29.9738	1768
30.0351	1548
30.0964	1472
30.1577	1356
30.2191	1295
30.2804	1269
30.3417	1269
30.403	1282
30.4643	1300
30.5256	1195
30.5869	1213
30.6482	1449
30.7095	1694
30.7708	2067
30.8321	1910
30.8934	1640
30.9547	1316
31.016	1287
31.0773	1223
31.1386	1516
31.1999	1602
31.2612	1521
31.3225	1334
31.3838	1122
31.4451	1093
31.5064	1139
31.5677	1043
31.629	1011
31.6904	995
31.7517	1010
31.813	1074
31.8743	1125
31.9356	1262
31.9969	1488
32.0582	1321
32.1195	1181
32.1808	1063
32.2421	1048
32.3034	1150
32.3647	1020
32.426	887
32.4873	851
32.5486	781
32.6099	800
32.6712	750
32.7325	750
32.7938	765
32.8551	762
32.9164	778
32.9777	973
33.039	1078
33.1003	1149
33.1617	982
33.223	917
33.2843	933
33.3456	907
33.4069	869
33.4682	830
33.5295	872
33.5908	836
33.6521	930
33.7134	868
33.7747	897
33.836	865
33.8973	924
33.9586	924
34.0199	1014
34.0812	1164
34.1425	1336
34.2038	1424
34.2651	1572
34.3264	2032
34.3877	2448
34.449	2810
34.5103	3200
34.5716	3398
34.633	3347
34.6943	3409
34.7556	3758
34.8169	4143
34.8782	4473
34.9395	4320
35.0008	3727
35.0621	3124
35.1234	2420
35.1847	2064
35.246	1710
35.3073	1582
35.3686	1520
35.4299	1480
35.4912	1402
35.5525	1383
35.6138	1459
35.6751	1258
35.7364	1202
35.7977	1246
35.859	1315
35.9203	1315
35.9816	1326
36.0429	1355
36.1043	1107
36.1656	1117
36.2269	1120
36.2882	1167
36.3495	1388
36.4108	1705
36.4721	4026
36.5334	4526
36.5947	3937
36.656	2110
36.7173	1641
36.7786	1552
36.8399	1539
36.9012	1538
36.9625	1557
37.0238	1497
37.0851	1570
37.1464	1709
37.2077	1599
37.269	1708
37.3303	1777
37.3916	1874
37.4529	1945
37.5142	2047
37.5756	2078
37.6369	2053
37.6982	1999
37.7595	1916
37.8208	1644
37.8821	1502
37.9434	1313
38.0047	1158
38.066	1120
38.1273	1047
38.1886	968
38.2499	1010
38.3112	969
38.3725	960
38.4338	996
38.4951	976
38.5564	916
38.6177	819
38.679	802
38.7403	796
38.8016	720
38.8629	713
38.9242	702
38.9855	704
39.0469	682
39.1082	784
39.1695	755
39.2308	817
39.2921	862
39.3534	1287
39.4147	4123
39.476	2254
39.5373	2706
39.5986	1074
39.6599	914
39.7212	975
39.7825	1003
39.8438	1057
39.9051	1173
39.9664	1210
40.0277	1181
40.089	1170
40.1503	1195
40.2116	1969
40.2729	2298
40.3342	1866
40.3955	1346
40.4568	913
40.5182	916
40.5795	904
40.6408	903
40.7021	1004
40.7634	1048
40.8247	1167
40.886	1195
40.9473	1075
41.0086	1052
41.0699	956
41.1312	1019
41.1925	1070
41.2538	959
41.3151	1001
41.3764	945
41.4377	969
41.499	981
41.5603	991
41.6216	1138
41.6829	1165
41.7442	1277
41.8055	1177
41.8668	1239
41.9281	1176
41.9895	1227
42.0508	1111
42.1121	1103
42.1734	1166
42.2347	1286
42.296	1566
42.3573	2482
42.4186	4352
42.4799	2309
42.5412	2312
42.6025	1284
42.6638	1143
42.7251	1012
42.7864	919
42.8477	804
42.909	778
42.9703	768
43.0316	760
43.0929	766
43.1542	721
43.2155	753
43.2768	644
43.3381	696
43.3994	789
43.4608	751
43.5221	749
43.5834	806
43.6447	866
43.706	739
43.7673	736
43.8286	758
43.8899	729
43.9512	812
44.0125	840
44.0738	822
44.1351	765
44.1964	702
44.2577	770
44.319	733
44.3803	720
44.4416	770
44.5029	777
44.5642	859
44.6255	861
44.6868	874
44.7481	941
44.8094	996
44.8707	1094
44.9321	1191
44.9934	1227
45.0547	1332
45.116	1404
45.1773	1414
45.2386	1593
45.2999	1932
45.3612	1991
45.4225	2056
45.4838	2035
45.5451	1840
45.6064	1704
45.6677	1776
45.729	2838
45.7903	2122
45.8516	2096
45.9129	1666
45.9742	1310
46.0355	1282
46.0968	1095
46.1581	1025
46.2194	868
46.2807	844
46.342	850
46.4034	867
46.4647	822
46.526	844
46.5873	785
46.6486	705
46.7099	707
46.7712	690
46.8325	677
46.8938	694
46.9551	768
47.0164	719
47.0777	706
47.139	641
47.2003	649
47.2616	595
47.3229	631
47.3842	703
47.4455	634
47.5068	646
47.5681	550
47.6294	559
47.6907	498
47.752	539
47.8133	563
47.8747	623
47.936	685
47.9973	719
48.0586	727
48.1199	657
48.1812	583
48.2425	580
48.3038	562
48.3651	529
48.4264	537
48.4877	520
48.549	477
48.6103	500
48.6716	585
48.7329	552
48.7942	519
48.8555	551
48.9168	540
48.9781	626
49.0394	640
49.1007	578
49.162	584
49.2233	594
49.2846	633
49.346	615
49.4073	565
49.4686	587
49.5299	592
49.5912	594
49.6525	543
49.7138	579
49.7751	544
49.8364	627
49.8977	724
49.959	870
50.0203	1800
50.0816	6688
50.1429	3437
50.2042	3453
50.2655	2516
50.3268	924
50.3881	708
50.4494	705
50.5107	795
50.572	995
50.6333	904
50.6946	926
50.7559	906
50.8173	821
50.8786	786
50.9399	692
51.0012	597
51.0625	540
51.1238	476
51.1851	457
51.2464	434
51.3077	414
51.369	438
51.4303	461
51.4916	447
51.5529	428
51.6142	456
51.6755	420
51.7368	425
51.7981	397
51.8594	432
51.9207	417
51.982	446
52.0433	486
52.1046	439
52.1659	461
52.2272	491
52.2886	556
52.3499	554
52.4112	581
52.4725	549
52.5338	550
52.5951	554
52.6564	562
52.7177	567
52.779	653
52.8403	674
52.9016	590
52.9629	618
53.0242	610
53.0855	601
53.1468	587
53.2081	623
53.2694	637
53.3307	689
53.392	696
53.4533	736
53.5146	723
53.5759	839
53.6372	882
53.6985	920
53.7599	937
53.8212	1028
53.8825	1048
53.9438	1055
54.0051	1097
54.0664	1004
54.1277	1014
54.189	968
54.2503	978
54.3116	992
54.3729	1049
54.4342	1055
54.4955	977
54.5568	1021
54.6181	1014
54.6794	1125
54.7407	1342
54.802	2431
54.8633	2407
54.9246	1723
54.9859	2294
55.0472	1498
55.1085	1421
55.1698	1508
55.2312	1614
55.2925	2027
55.3538	1592
55.4151	1637
55.4764	1441
55.5377	1355
55.599	1369
55.6603	1371
55.7216	1466
55.7829	1490
55.8442	1390
55.9055	1327
55.9668	1231
56.0281	1191
56.0894	1157
56.1507	1095
56.212	1114
56.2733	1183
56.3346	1134
56.3959	1155
56.4572	1169
56.5185	1043
56.5798	1029
56.6411	990
56.7025	903
56.7638	950
56.8251	824
56.8864	852
56.9477	852
57.009	847
57.0703	824
57.1316	825
57.1929	918
57.2542	813
57.3155	874
57.3768	888
57.4381	814
57.4994	881
57.5607	830
57.622	786
57.6833	814
57.7446	766
57.8059	692
57.8672	724
57.9285	657
57.9898	732
58.0511	681
58.1124	667
58.1738	667
58.2351	655
58.2964	685
58.3577	650
58.419	683
58.4803	709
58.5416	688
58.6029	689
58.6642	768
58.7255	786
58.7868	748
58.8481	720
58.9094	790
58.9707	781
59.032	731
59.0933	751
59.1546	770
59.2159	807
59.2772	821
59.3385	837
59.3998	774
59.4611	795
59.5224	824
59.5837	875
59.6451	953
59.7064	1087
59.7677	1227
59.829	1939
59.8903	4590
59.9516	3455
60.0129	2222
60.0742	3340
60.1355	1715
60.1968	1193
60.2581	1011
60.3194	935
60.3807	870
60.442	922
60.5033	926
60.5646	901
60.6259	957
60.6872	937
60.7485	992
60.8098	966
60.8711	934
60.9324	941
60.9937	1012
61.055	1038
61.1164	1082
61.1777	1132
61.239	1230
61.3003	1368
61.3616	1577
61.4229	1664
61.4842	1826
61.5455	1978
61.6068	2115
61.6681	1983
61.7294	1931
61.7907	1703
61.852	1628
61.9133	1430
61.9746	1239
62.0359	1129
62.0972	1004
62.1585	1054
62.2198	1024
62.2811	972
62.3424	1050
62.4037	1004
62.465	870
62.5263	896
62.5877	838
62.649	835
62.7103	717
62.7716	739
62.8329	722
62.8942	694
62.9555	610
63.0168	638
63.0781	625
63.1394	557
63.2007	596
63.262	618
63.3233	560
63.3846	580
63.4459	593
63.5072	562
63.5685	547
63.6298	588
63.6911	600
63.7524	674
63.8137	702
63.875	814
63.9363	1017
63.9976	1526
64.059	964
64.1203	901
64.1816	1016
64.2429	730
64.3042	613
64.3655	579
64.4268	551
64.4881	596
64.5494	585
64.6107	579
64.672	598
64.7333	587
64.7946	617
64.8559	591
64.9172	627
64.9785	665
65.0398	604
65.1011	635
65.1624	684
65.2237	656
65.285	643
65.3463	602
65.4076	626
65.4689	614
65.5303	641
65.5916	623
65.6529	610
65.7142	740
65.7755	743
65.8368	709
65.8981	742
65.9594	687
66.0207	591
66.082	610
66.1433	609
66.2046	619
66.2659	636
66.3272	671
66.3885	636
66.4498	625
66.5111	576
66.5724	536
66.6337	529
66.695	542
66.7563	546
66.8176	543
66.8789	556
66.9402	618
67.0016	610
67.0629	628
67.1242	630
67.1855	604
67.2468	614
67.3081	599
67.3694	625
67.4307	664
67.492	712
67.5533	800
67.6146	1281
67.6759	2841
67.7372	2178
67.7985	1202
67.8598	1722
67.9211	1698
67.9824	1221
68.0437	2042
68.105	3872
68.1663	1873
68.2276	2476
68.2889	3526
68.3502	1638
68.4115	1391
68.4729	1498
68.5342	888
68.5955	822
68.6568	768
68.7181	705
68.7794	732
68.8407	682
68.902	689
68.9633	763
69.0246	752
69.0859	719
69.1472	707
69.2085	786
69.2698	813
69.3311	847
69.3924	915
69.4537	916
69.515	893
69.5763	916
69.6376	852
69.6989	858
69.7602	832
69.8215	783
69.8828	801
69.9442	790
70.0055	807
70.0668	871
70.1281	974
70.1894	942
70.2507	890
70.312	852
70.3733	848
70.4346	836
70.4959	756
70.5572	704
70.6185	738
70.6798	738
70.7411	720
70.8024	754
70.8637	690
70.925	663
70.9863	600
71.0476	729
71.1089	699
71.1702	702
71.2315	647
71.2928	665
71.3541	699
71.4155	717
71.4768	674
71.5381	708
71.5994	671
71.6607	717
71.722	677
71.7833	669
71.8446	724
71.9059	739
71.9672	723
72.0285	749
72.0898	751
72.1511	839
72.2124	841
72.2737	903
72.335	1001
72.3963	1056
72.4576	1033
72.5189	1157
72.5802	1132
72.6415	1203
72.7028	1190
72.7641	1170
72.8254	1203
72.8868	1100
72.9481	1128
73.0094	1142
73.0707	1063
73.1013	1014